Folder: eden/data

File: 20221005_111011_SS_2_2_1_xrd_test_1_1.dat
# UNIX time, Current (A), PS Voltage (V), REF Voltage (V)
# SAMPLE_SURFACE = 2.83
# SAMPLE_NAME = SS_2_2_1_xrd_test_1
# COATING_STEP = 1
1.66497e+09	-0.000000000000000000e+00	0.001
1.66497e+09	-0.000000000000000000e+00	0.000000000000000000e+00
1.66497e+09	-0.000000000000000000e+00	0.001
1.66497e+09	-0.000000000000000000e+00	0.000000000000000000e+00
1.66497e+09	-0.000000000000000000e+00	0.001
1.66497e+09	-0.000000000000000000e+00	0.001
1.66497e+09	-0.000000000000000000e+00	0.001
1.66497e+09	-0.000000000000000000e+00	2.002
1.66497e+09	-0.000000000000000000e+00	2.001
1.66497e+09	-0.000000000000000000e+00	2.002
1.66497e+09	-0.000000000000000000e+00	2.001
1.66497e+09	-0.000000000000000000e+00	2.002
1.66497e+09	-0.000000000000000000e+00	2.001
1.66497e+09	-0.000000000000000000e+00	2.002
1.66497e+09	-0.000000000000000000e+00	2.001
1.66497e+09	-0.000000000000000000e+00	2.002
1.66497e+09	-0.000000000000000000e+00	2.001
1.66497e+09	-0.000000000000000000e+00	2.001
1.66497e+09	-0.000000000000000000e+00	2.001
1.66497e+09	-0.000000000000000000e+00	2.001
1.66497e+09	-0.000000000000000000e+00	2.002
1.66497e+09	-0.000000000000000000e+00	2.002
1.66497e+09	-0.000000000000000000e+00	2.002
1.66497e+09	-0.000000000000000000e+00	2.002
1.66497e+09	-0.000000000000000000e+00	2.001
1.66497e+09	-0.000000000000000000e+00	2.001
1.66497e+09	-0.000000000000000000e+00	2.001
1.66497e+09	-0.000000000000000000e+00	2.001
1.66497e+09	-0.000000000000000000e+00	2.002
1.66497e+09	-0.000000000000000000e+00	2.001
1.66497e+09	-0.000000000000000000e+00	2.002
1.66497e+09	-0.000000000000000000e+00	2.001
1.66497e+09	-0.000000000000000000e+00	2.002
1.66497e+09	-0.000000000000000000e+00	2.001
1.66497e+09	-0.000000000000000000e+00	2.002
1.66497e+09	-0.000000000000000000e+00	2.002
1.66497e+09	-0.000000000000000000e+00	2.002
1.66497e+09	-0.000000000000000000e+00	2.002
1.66497e+09	-0.000000000000000000e+00	2.002
1.66497e+09	-0.000000000000000000e+00	2.002
1.66497e+09	-0.000000000000000000e+00	2.001
1.66497e+09	-0.000000000000000000e+00	2.002
1.66497e+09	-0.000000000000000000e+00	2.001
1.66497e+09	-0.000000000000000000e+00	2.002
1.66497e+09	-0.000000000000000000e+00	2.001
1.66497e+09	-0.000000000000000000e+00	2.002
1.66497e+09	-0.000000000000000000e+00	2.002
1.66497e+09	-0.000000000000000000e+00	2.002
1.66497e+09	-0.000000000000000000e+00	2.002
1.66497e+09	-0.000000000000000000e+00	2.002
1.66497e+09	-0.000000000000000000e+00	2.002
1.66497e+09	-0.000000000000000000e+00	2.002
1.66497e+09	-0.000000000000000000e+00	2.002
1.66497e+09	-0.000000000000000000e+00	2.001
1.66497e+09	-0.000000000000000000e+00	2.001
1.66497e+09	-0.000000000000000000e+00	2.001
1.66497e+09	-0.000000000000000000e+00	2.001
1.66497e+09	-0.000000000000000000e+00	2.001
1.66497e+09	-0.000000000000000000e+00	2.001
1.66497e+09	-0.000000000000000000e+00	2.002
1.66497e+09	-0.000000000000000000e+00	2.002
1.66497e+09	0.142	1.249
1.66497e+09	0.143	1.218
1.66497e+09	0.142	1.22
1.66497e+09	0.142	1.226
1.66497e+09	0.142	1.233
1.66497e+09	0.143	1.229
1.66497e+09	0.142	1.263
1.66497e+09	0.142	1.27
1.66497e+09	0.142	1.298
1.66497e+09	0.143	1.279
1.66497e+09	0.143	1.296
1.66497e+09	0.143	0.937
1.66497e+09	0.143	0.929
1.66497e+09	0.143	0.93
1.66497e+09	0.142	0.916
1.66497e+09	0.142	0.921
1.66497e+09	0.143	0.925
1.66497e+09	0.143	0.915
1.66497e+09	0.143	0.916
1.66497e+09	0.143	0.915
1.66497e+09	0.143	0.902
1.66497e+09	0.143	0.895
1.66497e+09	0.143	0.897
1.66497e+09	0.029	0.257
1.66497e+09	0.029	0.17
1.66497e+09	0.031	0.169
1.66497e+09	0.029	0.17
1.66497e+09	0.03	0.17
1.66497e+09	0.029	0.157
1.66497e+09	0.031	0.155
1.66497e+09	0.03	0.154
1.66497e+09	0.031	0.163
1.66497e+09	0.03	0.171
1.66497e+09	0.031	0.165
1.66497e+09	0.03	0.161
1.66497e+09	0.03	0.17
1.66497e+09	0.029	0.176
1.66497e+09	0.031	0.175
1.66497e+09	0.031	0.177
1.66497e+09	0.03	0.192
1.66497e+09	0.03	0.191
1.66497e+09	0.029	0.171
1.66497e+09	0.029	0.181
1.66497e+09	0.03	0.183
1.66497e+09	0.031	0.189
1.66497e+09	0.03	0.191
1.66497e+09	0.03	0.194
1.66497e+09	0.03	0.192
1.66497e+09	0.029	0.181
1.66497e+09	0.03	0.18
1.66497e+09	0.031	0.183
1.66497e+09	0.03	0.191
1.66497e+09	0.031	0.192
1.66497e+09	0.029	0.192
1.66497e+09	0.029	0.191
1.66497e+09	0.029	0.191
1.66497e+09	0.03	0.19
1.66497e+09	0.03	0.189
1.66497e+09	0.03	0.192
1.66497e+09	0.031	0.192
1.66497e+09	0.03	0.184
1.66497e+09	0.031	0.183
1.66497e+09	0.031	0.18
1.66497e+09	0.03	0.18
1.66497e+09	0.03	0.181
1.66497e+09	0.03	0.187
1.66497e+09	0.03	0.186
1.66497e+09	-0.000000000000000000e+00	0.014
1.66497e+09	-0.000000000000000000e+00	0.011
1.66497e+09	-0.000000000000000000e+00	0.009
1.66497e+09	-0.000000000000000000e+00	0.006
1.66497e+09	-0.000000000000000000e+00	0.001
1.66497e+09	-0.000000000000000000e+00	0.001
1.66497e+09	-0.000000000000000000e+00	0.001
1.66497e+09	-0.000000000000000000e+00	0.001
1.66497e+09	-0.000000000000000000e+00	0.001
1.66497e+09	-0.000000000000000000e+00	0.001
1.66497e+09	-0.000000000000000000e+00	0.001
1.66497e+09	-0.000000000000000000e+00	0.001
1.66497e+09	-0.000000000000000000e+00	0.001
1.66497e+09	-0.000000000000000000e+00	0.001
1.66497e+09	-0.000000000000000000e+00	0.001
1.66497e+09	-0.000000000000000000e+00	0.001
1.66497e+09	-0.000000000000000000e+00	0.001
1.66497e+09	-0.000000000000000000e+00	0.001
1.66497e+09	-0.000000000000000000e+00	0.002
1.66497e+09	-0.000000000000000000e+00	0.001
1.66497e+09	-0.000000000000000000e+00	0.001
1.66497e+09	-0.000000000000000000e+00	0.001
1.66497e+09	-0.000000000000000000e+00	0.001
1.66497e+09	-0.000000000000000000e+00	0.001
1.66497e+09	-0.000000000000000000e+00	0.001
1.66497e+09	-0.000000000000000000e+00	0.001
1.66497e+09	-0.000000000000000000e+00	0.001
1.66497e+09	-0.000000000000000000e+00	0.001
1.66497e+09	-0.000000000000000000e+00	0.001
1.66497e+09	-0.000000000000000000e+00	0.001
1.66497e+09	-0.000000000000000000e+00	0.001
1.66497e+09	-0.000000000000000000e+00	0.002
1.66497e+09	-0.000000000000000000e+00	0.001
1.66497e+09	-0.000000000000000000e+00	0.001
1.66497e+09	-0.000000000000000000e+00	0.001
1.66497e+09	-0.000000000000000000e+00	0.001
1.66497e+09	-0.000000000000000000e+00	0.001
1.66497e+09	-0.000000000000000000e+00	0.001
1.66497e+09	-0.000000000000000000e+00	0.001
1.66497e+09	-0.000000000000000000e+00	0.002
1.66497e+09	-0.000000000000000000e+00	0.001
1.66497e+09	-0.000000000000000000e+00	0.001
1.66497e+09	-0.000000000000000000e+00	0.001
1.66497e+09	-0.000000000000000000e+00	0.001
1.66497e+09	-0.000000000000000000e+00	0.001
1.66497e+09	-0.000000000000000000e+00	0.001
1.66497e+09	-0.000000000000000000e+00	0.001
1.66497e+09	-0.000000000000000000e+00	0.001
1.66497e+09	-0.000000000000000000e+00	0.001
1.66497e+09	-0.000000000000000000e+00	0.001
1.66497e+09	-0.000000000000000000e+00	0.001
1.66497e+09	-0.000000000000000000e+00	0.002
1.66497e+09	-0.000000000000000000e+00	0.001
1.66497e+09	-0.000000000000000000e+00	0.001
1.66497e+09	-0.000000000000000000e+00	0.001
1.66497e+09	-0.000000000000000000e+00	0.001
1.66497e+09	-0.000000000000000000e+00	0.001
1.66497e+09	-0.000000000000000000e+00	0.001
1.66497e+09	-0.000000000000000000e+00	0.001
1.66497e+09	-0.000000000000000000e+00	0.001
1.66497e+09	-0.000000000000000000e+00	0.001
1.66497e+09	-0.000000000000000000e+00	0.001
1.66497e+09	-0.000000000000000000e+00	0.001
1.66497e+09	-0.000000000000000000e+00	0.001
1.66497e+09	-0.000000000000000000e+00	0.001
1.66497e+09	-0.000000000000000000e+00	0.002
1.66497e+09	-0.000000000000000000e+00	0.001
1.66497e+09	-0.000000000000000000e+00	0.001
1.66497e+09	-0.000000000000000000e+00	0.001
1.66497e+09	-0.000000000000000000e+00	0.001
1.66497e+09	-0.000000000000000000e+00	0.001
1.66497e+09	-0.000000000000000000e+00	0.001
1.66497e+09	-0.000000000000000000e+00	0.001
1.66497e+09	-0.000000000000000000e+00	0.001
1.66497e+09	-0.000000000000000000e+00	0.001
1.66497e+09	-0.000000000000000000e+00	0.002
1.66497e+09	-0.000000000000000000e+00	0.001
1.66497e+09	-0.000000000000000000e+00	0.001
1.66497e+09	-0.000000000000000000e+00	0.001
1.66497e+09	-0.000000000000000000e+00	0.001
1.66497e+09	-0.000000000000000000e+00	0.002
1.66497e+09	-0.000000000000000000e+00	0.001
1.66497e+09	-0.000000000000000000e+00	0.001
1.66497e+09	-0.000000000000000000e+00	0.001
1.66497e+09	-0.000000000000000000e+00	0.001
1.66497e+09	-0.000000000000000000e+00	0.001
1.66497e+09	-0.000000000000000000e+00	0.001
1.66497e+09	-0.000000000000000000e+00	0.001
1.66497e+09	-0.000000000000000000e+00	0.001
1.66497e+09	-0.000000000000000000e+00	0.001
1.66497e+09	-0.000000000000000000e+00	0.001
1.66497e+09	-0.000000000000000000e+00	0.001
1.66497e+09	-0.000000000000000000e+00	0.001
1.66497e+09	-0.000000000000000000e+00	0.001
1.66497e+09	-0.000000000000000000e+00	0.002
1.66497e+09	-0.000000000000000000e+00	0.001
1.66497e+09	-0.000000000000000000e+00	0.002
1.66497e+09	-0.000000000000000000e+00	0.001
1.66497e+09	-0.000000000000000000e+00	0.001
1.66497e+09	-0.000000000000000000e+00	0.001
1.66497e+09	-0.000000000000000000e+00	0.001
1.66497e+09	-0.000000000000000000e+00	0.001
1.66497e+09	-0.000000000000000000e+00	0.001
1.66497e+09	-0.000000000000000000e+00	0.001
1.66497e+09	-0.000000000000000000e+00	0.001
1.66497e+09	-0.000000000000000000e+00	0.001
1.66497e+09	-0.000000000000000000e+00	0.001
1.66497e+09	-0.000000000000000000e+00	0.001
1.66497e+09	-0.000000000000000000e+00	0.001
1.66497e+09	-0.000000000000000000e+00	0.001
1.66497e+09	-0.000000000000000000e+00	0.001

File: 20221005_114317_SS_2_2_1_xrd_test_2_1.dat
# UNIX time, Current (A), PS Voltage (V), REF Voltage (V)
# SAMPLE_SURFACE = 2.83
# SAMPLE_NAME = SS_2_2_1_xrd_test_2
# COATING_STEP = 1
1.66497e+09	-0.000000000000000000e+00	0.001
1.66497e+09	-0.000000000000000000e+00	0.001
1.66497e+09	-0.000000000000000000e+00	2.001
1.66497e+09	-0.000000000000000000e+00	2.001
1.66497e+09	-0.000000000000000000e+00	2.002
1.66497e+09	-0.000000000000000000e+00	2.002
1.66497e+09	-0.000000000000000000e+00	2.001
1.66497e+09	-0.000000000000000000e+00	2.002
1.66497e+09	-0.000000000000000000e+00	2.001
1.66497e+09	-0.000000000000000000e+00	2.002
1.66497e+09	-0.000000000000000000e+00	2.002
1.66497e+09	-0.000000000000000000e+00	2.001
1.66497e+09	-0.000000000000000000e+00	2.001
1.66497e+09	-0.000000000000000000e+00	2.001
1.66497e+09	-0.000000000000000000e+00	2.001
1.66497e+09	-0.000000000000000000e+00	2.001
1.66497e+09	-0.000000000000000000e+00	2.002
1.66497e+09	-0.000000000000000000e+00	2.001
1.66497e+09	-0.000000000000000000e+00	2.002
1.66497e+09	-0.000000000000000000e+00	2.001
1.66497e+09	-0.000000000000000000e+00	2.001
1.66497e+09	-0.000000000000000000e+00	2.002
1.66497e+09	-0.000000000000000000e+00	2.001
1.66497e+09	-0.000000000000000000e+00	2.002
1.66497e+09	-0.000000000000000000e+00	2.001
1.66497e+09	-0.000000000000000000e+00	2.001
1.66497e+09	-0.000000000000000000e+00	2.001
1.66497e+09	-0.000000000000000000e+00	2.001
1.66497e+09	-0.000000000000000000e+00	2.001
1.66497e+09	-0.000000000000000000e+00	2.002
1.66497e+09	-0.000000000000000000e+00	2.001
1.66497e+09	-0.000000000000000000e+00	2.002
1.66497e+09	-0.000000000000000000e+00	2.001
1.66497e+09	-0.000000000000000000e+00	2.002
1.66497e+09	-0.000000000000000000e+00	2.001
1.66497e+09	-0.000000000000000000e+00	2.002
1.66497e+09	-0.000000000000000000e+00	2.001
1.66497e+09	-0.000000000000000000e+00	2.002
1.66497e+09	-0.000000000000000000e+00	2.002
1.66497e+09	-0.000000000000000000e+00	2.001
1.66497e+09	-0.000000000000000000e+00	2.002
1.66497e+09	0.142	0.859
1.66497e+09	0.143	0.886
1.66497e+09	0.142	0.88
1.66497e+09	0.143	0.877
1.66497e+09	0.142	0.876
1.66497e+09	0.142	0.858
1.66497e+09	0.143	0.837
1.66497e+09	0.142	0.822
1.66497e+09	0.143	0.815
1.66497e+09	0.143	0.804
1.66497e+09	0.142	0.803
1.66497e+09	0.143	0.801
1.66497e+09	0.143	0.795
1.66497e+09	0.029	0.155
1.66497e+09	0.03	0.149
1.66497e+09	0.03	0.145
1.66497e+09	0.031	0.141
1.66497e+09	0.031	0.144
1.66497e+09	0.03	0.134
1.66497e+09	0.031	0.136
1.66497e+09	0.031	0.139
1.66497e+09	0.031	0.144
1.66497e+09	0.031	0.134
1.66497e+09	0.03	0.126
1.66497e+09	0.03	0.133
1.66497e+09	0.031	0.137
1.66497e+09	0.03	0.133
1.66497e+09	0.031	0.136
1.66497e+09	0.031	0.129
1.66497e+09	0.031	0.122
1.66497e+09	0.031	0.14
1.66497e+09	0.03	0.162
1.66497e+09	0.03	0.165
1.66497e+09	0.03	0.151
1.66497e+09	0.03	0.134
1.66497e+09	0.031	0.124
1.66497e+09	0.031	0.129
1.66497e+09	0.029	0.142
1.66497e+09	0.03	0.128
1.66497e+09	0.03	0.128
1.66497e+09	0.03	0.143
1.66497e+09	0.031	0.14
1.66497e+09	0.03	0.132
1.66497e+09	0.031	0.138
1.66497e+09	0.03	0.139
1.66497e+09	0.031	0.14
1.66497e+09	0.03	0.134
1.66497e+09	0.03	0.141
1.66497e+09	0.029	0.133
1.66497e+09	0.03	0.133
1.66497e+09	0.031	0.134
1.66497e+09	0.031	0.139
1.66497e+09	0.031	0.141
1.66497e+09	0.031	0.129
1.66497e+09	0.03	0.137
1.66497e+09	0.029	0.146
1.66497e+09	0.031	0.15
1.66497e+09	0.029	0.141
1.66497e+09	0.03	0.148
1.66497e+09	0.029	0.161
1.66497e+09	0.031	0.145
1.66497e+09	0.03	0.143
1.66497e+09	0.029	0.14
1.66497e+09	0.03	0.146
1.66497e+09	0.031	0.14
1.66497e+09	0.031	0.151
1.66497e+09	0.03	0.156
1.66497e+09	0.03	0.143
1.66497e+09	0.03	0.146
1.66497e+09	0.029	0.152
1.66497e+09	0.03	0.156
1.66497e+09	0.029	0.162
1.66497e+09	0.03	0.158
1.66497e+09	0.03	0.144
1.66497e+09	0.03	0.154
1.66497e+09	0.031	0.154
1.66497e+09	0.031	0.146
1.66497e+09	0.03	0.143
1.66497e+09	0.03	0.148
1.66497e+09	0.031	0.161
1.66497e+09	0.03	0.153
1.66497e+09	0.03	0.153
1.66497e+09	0.029	0.158
1.66497e+09	0.03	0.157
1.66497e+09	0.031	0.169
1.66497e+09	0.03	0.166
1.66497e+09	0.03	0.156
1.66497e+09	0.03	0.157
1.66497e+09	0.03	0.162
1.66497e+09	0.029	0.172
1.66497e+09	0.03	0.164
1.66497e+09	0.03	0.172
1.66497e+09	0.03	0.172
1.66497e+09	0.031	0.17
1.66497e+09	0.03	0.162
1.66497e+09	0.03	0.164
1.66497e+09	0.03	0.173
1.66497e+09	0.031	0.169
1.66497e+09	0.03	0.156
1.66497e+09	0.03	0.159
1.66497e+09	0.031	0.167
1.66497e+09	0.03	0.166
1.66497e+09	0.03	0.17
1.66497e+09	0.03	0.171
1.66497e+09	0.029	0.178
1.66497e+09	0.03	0.171
1.66497e+09	0.029	0.17
1.66497e+09	0.03	0.171
1.66497e+09	0.031	0.17
1.66497e+09	0.03	0.163
1.66497e+09	0.031	0.167
1.66497e+09	0.03	0.169
1.66497e+09	0.031	0.167
1.66497e+09	0.03	0.166
1.66497e+09	0.031	0.18
1.66497e+09	0.029	0.179
1.66497e+09	0.031	0.173
1.66497e+09	0.03	0.165
1.66497e+09	0.031	0.169
1.66497e+09	0.03	0.172
1.66497e+09	0.029	0.172
1.66497e+09	0.03	0.172
1.66497e+09	0.031	0.164
1.66497e+09	0.029	0.168
1.66497e+09	0.031	0.17
1.66497e+09	0.03	0.174
1.66497e+09	0.029	0.169
1.66497e+09	0.029	0.172
1.66497e+09	0.029	0.177
1.66497e+09	0.031	0.17
1.66497e+09	0.029	0.175
1.66497e+09	0.031	0.173
1.66497e+09	0.03	0.17
1.66497e+09	0.029	0.166
1.66497e+09	0.03	0.172
1.66497e+09	0.029	0.179
1.66497e+09	0.03	0.171
1.66497e+09	0.029	0.17
1.66497e+09	0.029	0.174
1.66497e+09	0.031	0.17
1.66497e+09	0.03	0.172
1.66497e+09	0.031	0.17
1.66497e+09	0.031	0.166
1.66497e+09	0.03	0.166
1.66497e+09	0.03	0.17
1.66497e+09	0.029	0.172
1.66497e+09	0.03	0.171
1.66497e+09	0.029	0.17
1.66497e+09	0.029	0.164
1.66497e+09	0.03	0.17
1.66497e+09	0.029	0.175
1.66497e+09	0.03	0.177
1.66497e+09	0.029	0.183
1.66497e+09	0.032	0.175
1.66497e+09	0.031	0.176
1.66497e+09	0.031	0.173
1.66497e+09	0.029	0.174
1.66497e+09	0.03	0.171
1.66497e+09	0.03	0.171
1.66497e+09	0.029	0.171
1.66497e+09	0.031	0.168
1.66497e+09	0.029	0.171
1.66497e+09	0.03	0.172
1.66497e+09	0.03	0.167
1.66497e+09	0.031	0.187
1.66497e+09	0.031	0.17
1.66497e+09	0.03	0.176
1.66497e+09	0.03	0.172
1.66497e+09	0.031	0.172
1.66497e+09	0.03	0.163
1.66497e+09	0.031	0.177
1.66497e+09	0.029	0.173
1.66497e+09	0.03	0.178
1.66497e+09	0.029	0.181
1.66497e+09	0.031	0.17
1.66497e+09	0.031	0.175
1.66497e+09	0.028	0.177
1.66497e+09	0.031	0.187
1.66497e+09	0.029	0.173
1.66497e+09	0.029	0.173
1.66497e+09	0.029	0.173
1.66497e+09	0.03	0.171
1.66497e+09	0.03	0.18
1.66497e+09	0.03	0.169
1.66497e+09	0.029	0.175
1.66497e+09	0.028	0.169
1.66497e+09	0.029	0.177
1.66497e+09	0.03	0.176
1.66497e+09	0.03	0.172
1.66497e+09	0.031	0.172
1.66497e+09	0.03	0.171
1.66497e+09	0.031	0.174
1.66497e+09	0.029	0.178
1.66497e+09	0.03	0.177
1.66497e+09	0.03	0.18
1.66497e+09	0.031	0.175
1.66497e+09	0.031	0.19
1.66497e+09	0.03	0.18
1.66497e+09	0.03	0.177
1.66497e+09	0.031	0.176
1.66497e+09	0.03	0.168
1.66497e+09	0.03	0.176
1.66497e+09	0.029	0.172
1.66497e+09	0.029	0.177
1.66497e+09	0.031	0.169
1.66497e+09	0.031	0.179
1.66497e+09	0.032	0.182
1.66497e+09	0.03	0.167
1.66497e+09	0.03	0.182
1.66497e+09	0.029	0.182
1.66497e+09	0.03	0.171
1.66497e+09	0.033	0.188
1.66497e+09	0.03	0.18
1.66497e+09	0.031	0.184
1.66497e+09	0.029	0.189
1.66497e+09	0.031	0.196
1.66497e+09	0.029	0.183
1.66497e+09	0.031	0.173
1.66497e+09	0.029	0.177
1.66497e+09	0.03	0.175
1.66497e+09	0.028	0.19
1.66497e+09	0.03	0.189
1.66497e+09	0.029	0.179
1.66497e+09	0.029	0.169
1.66497e+09	0.032	0.165
1.66497e+09	0.027	0.176
1.66497e+09	0.03	0.17
1.66497e+09	0.029	0.18
1.66497e+09	0.031	0.177
1.66497e+09	0.029	0.186
1.66497e+09	0.03	0.178
1.66497e+09	0.03	0.197
1.66497e+09	0.031	0.188
1.66497e+09	0.03	0.178
1.66497e+09	0.03	0.188
1.66497e+09	0.03	0.176
1.66497e+09	0.031	0.183
1.66497e+09	0.03	0.178
1.66497e+09	0.031	0.183
1.66497e+09	0.029	0.194
1.66497e+09	0.029	0.195
1.66497e+09	0.029	0.193
1.66497e+09	0.031	0.189
1.66497e+09	0.028	0.186
1.66497e+09	0.028	0.187
1.66497e+09	0.03	0.185
1.66497e+09	0.029	0.203
1.66497e+09	0.03	0.179
1.66497e+09	0.03	0.193
1.66497e+09	0.031	0.187
1.66497e+09	0.029	0.19
1.66497e+09	0.032	0.197
1.66497e+09	0.029	0.187
1.66497e+09	0.029	0.184
1.66497e+09	0.03	0.184
1.66497e+09	0.031	0.188
1.66497e+09	0.032	0.19
1.66497e+09	0.03	0.187
1.66497e+09	0.031	0.182
1.66497e+09	-0.000000000000000000e+00	0.008